File: result/phase_2/data/features.csv
cycle_idx,capacity_Ah,energy_Wh,duration_s,v_min,v_max,v_mean,i_rms,dVdt_abs_mean
1,3.27018,11.6967,3680.0,3.0,4.08156,3.57664,3.19953,0.000362261
3,3.26574,11.6795,3675.0,3.0,4.08232,3.57624,3.19953,0.000360389
5,3.25508,11.641,3663.0,3.0,4.08309,3.57613,3.19953,0.000361316
7,3.24973,11.619,3657.0,3.0,4.0837,3.57525,3.19951,0.000360011
9,3.24707,11.6098,3654.0,3.0,4.0837,3.57533,3.19952,0.000363356
11,3.24442,11.5985,3651.0,3.0,4.08324,3.57478,3.19954,0.000360279
13,3.24263,11.5916,3649.0,3.0,4.08293,3.57464,3.19952,0.000364734
15,3.23996,11.5801,3646.0,3.0,4.08385,3.57401,3.19952,0.0003653
17,3.23729,11.5693,3643.0,3.0,4.08324,3.57362,3.19952,0.000361145
19,3.23462,11.5584,3640.0,3.0,4.08339,3.57321,3.19952,0.000362514
21,3.23019,11.5413,3635.0,3.0,4.08339,3.57281,3.19952,0.00036336
23,3.22663,11.5266,3631.0,3.0,4.084,3.5722,3.19952,0.000362565
25,3.22574,11.5218,3630.0,3.0,4.08309,3.57169,3.19953,0.000366856
27,3.22305,11.5104,3627.0,3.0,4.08354,3.57116,3.1995,0.000363759
29,3.21952,11.4961,3623.0,3.0,4.0837,3.57063,3.19952,0.000365075
31,3.21952,11.4949,3623.0,3.0,4.08324,3.57026,3.19952,0.000366361
33,3.21507,11.4781,3618.0,2.99985,4.08248,3.56996,3.19952,0.000366519
35,3.21418,11.475,3617.0,3.0,4.08339,3.56998,3.19952,0.000364627
37,3.21329,11.47,3616.0,2.99985,4.08324,3.56942,3.19951,0.000365784
39,3.21063,11.4586,3613.0,3.0,4.08324,3.56883,3.19952,0.000364349
41,3.20974,11.4538,3612.0,3.0,4.08354,3.56832,3.19952,0.000362661
43,3.20351,11.4315,3605.0,3.0,4.08248,3.56829,3.19951,0.000360993
45,3.20796,11.4451,3610.0,3.0,4.08324,3.56759,3.19952,0.000361812
47,3.20174,11.4237,3603.0,3.0,4.08263,3.56783,3.19952,0.000367343
49,3.20174,11.4207,3603.0,3.0,4.08263,3.56689,3.19952,0.000362921
51,3.2044,11.4294,3606.0,3.0,4.08171,3.56665,3.19951,0.000363598
53,3.19908,11.41,3600.0,3.0,4.08339,3.56652,3.19953,0.000362926
55,3.19818,11.406,3599.0,3.0,4.08293,3.56627,3.19952,0.00036276
57,3.19284,11.386,3593.0,3.0,4.08248,3.56597,3.19951,0.000362052
59,3.19197,11.3821,3592.0,3.0,4.08248,3.56571,3.19953,0.000366544
61,3.18572,11.3588,3585.0,2.99985,4.08202,3.5654,3.19949,0.000369584
63,3.18485,11.3541,3584.0,3.0,4.08232,3.56489,3.19952,0.00036525
65,3.1813,11.3405,3580.0,3.0,4.08232,3.56461,3.19952,0.000368994
67,3.17774,11.3271,3576.0,3.0,4.08248,3.5644,3.19952,0.000365323
69,3.17594,11.3194,3574.0,3.0,4.08156,3.56397,3.1995,0.000366787
71,3.1724,11.3059,3570.0,3.0,4.08141,3.56369,3.19951,0.000367008
73,3.16973,11.2951,3567.0,3.0,4.08171,3.5633,3.1995,0.000367044
75,3.16621,11.282,3563.0,3.0,4.08186,3.56314,3.19953,0.000367294
77,3.16352,11.2721,3560.0,3.0,4.08171,3.56302,3.19951,0.000368873
79,3.16174,11.2657,3558.0,3.0,4.0811,3.563,3.19951,0.000366309
81,3.15997,11.258,3556.0,3.0,4.08171,3.56258,3.19952,0.000370273
83,3.15907,11.2546,3555.0,3.0,4.08125,3.56251,3.19951,0.000369702
85,3.15287,11.2305,3548.0,3.0,4.08141,3.56186,3.19953,0.000370116
87,3.15285,11.2284,3548.0,3.0,4.0811,3.56123,3.19951,0.000369698
89,3.14841,11.2132,3543.0,3.0,4.08049,3.56141,3.19951,0.000370395
91,3.14751,11.2089,3542.0,3.0,4.08171,3.56106,3.1995,0.000371446
93,3.14396,11.1962,3538.0,3.0,4.0808,3.56105,3.19951,0.000370973
95,3.13952,11.1789,3533.0,3.0,4.08095,3.56058,3.19951,0.000369952
97,3.13863,11.1746,3532.0,3.0,4.08141,3.56021,3.19951,0.000369992
99,3.13418,11.1577,3527.0,3.0,4.08034,3.55988,3.1995,0.000370471
101,3.1484,11.21,3543.0,3.0,4.0808,3.56042,3.19951,0.000368707
103,3.14486,11.198,3539.0,3.0,4.08064,3.56059,3.19952,0.000368259
105,3.14306,11.1909,3537.0,3.0,4.08064,3.56039,3.1995,0.000365608
107,3.13773,11.1718,3531.0,2.99985,4.08019,3.56035,3.19949,0.000368819
109,3.13418,11.1575,3527.0,3.0,4.08034,3.55981,3.1995,0.000372391
111,3.13063,11.1438,3523.0,3.0,4.08049,3.55948,3.19951,0.000370173
113,3.12796,11.1342,3520.0,3.0,4.08064,3.55946,3.19951,0.000368752
115,3.12619,11.1271,3518.0,3.0,4.0808,3.5592,3.19951,0.000371237
117,3.19286,11.3859,3593.0,3.0,4.08339,3.56591,3.19952,0.000363834
119,3.19018,11.3737,3590.0,3.0,4.08293,3.56511,3.19951,0.000362848
121,3.19374,11.3873,3594.0,3.0,4.0837,3.56536,3.19952,0.000364651
123,3.18485,11.3512,3584.0,3.0,4.08202,3.564,3.19952,0.000364806
125,3.1893,11.3681,3589.0,3.0,4.08248,3.56434,3.19952,0.000364705
127,3.18752,11.3578,3587.0,3.0,4.08232,3.56309,3.19952,0.000363226
129,3.18218,11.3397,3581.0,3.0,4.08202,3.56338,3.19951,0.000366288
131,3.17774,11.3204,3576.0,3.0,4.08156,3.56226,3.19952,0.000365776
133,3.09063,10.9889,3478.0,3.0,4.07774,3.55541,3.1995,0.00037363
135,3.08974,10.9856,3477.0,3.0,4.07881,3.55538,3.1995,0.000371551
137,3.08707,10.9761,3474.0,3.0,4.07912,3.55539,3.1995,0.000369986
139,3.08441,10.9658,3471.0,2.99985,4.07805,3.55511,3.1995,0.000374205
141,3.08264,10.9595,3469.0,3.0,4.07866,3.55512,3.19951,0.00037261
143,3.07997,10.9497,3466.0,2.99985,4.07881,3.555,3.1995,0.000373356
145,3.07731,10.9396,3463.0,3.0,4.07897,3.55479,3.19951,0.000370786
147,3.07552,10.9334,3461.0,3.0,4.07881,3.55485,3.1995,0.000375402
149,3.05597,10.8615,3439.0,3.0,4.07744,3.55405,3.1995,0.000374011
151,3.05952,10.8756,3443.0,3.0,4.07759,3.55455,3.1995,0.000375872
153,3.05773,10.8702,3441.0,3.0,4.07866,3.55485,3.19948,0.000372988
155,3.05594,10.8643,3439.0,3.0,4.07836,3.555,3.19947,0.000376207
157,3.05241,10.8512,3435.0,3.0,4.07881,3.55484,3.1995,0.000377583
159,3.04974,10.841,3432.0,3.0,4.0782,3.55459,3.19949,0.000375238
161,3.04709,10.8314,3429.0,3.0,4.07836,3.55455,3.19951,0.000377719
163,3.04352,10.8191,3425.0,3.0,4.07744,3.55465,3.1995,0.000373423
165,3.03907,10.8029,3420.0,3.0,4.0779,3.55456,3.19949,0.000377259
167,3.04173,10.8118,3423.0,3.0,4.07774,3.55436,3.19948,0.000374617
169,3.04441,10.8214,3426.0,3.0,4.07759,3.5544,3.19949,0.000379477
171,3.03815,10.7977,3419.0,3.0,4.07744,3.55392,3.19946,0.000376706
173,3.03553,10.7884,3416.0,3.0,4.07713,3.5539,3.19951,0.000376076
175,3.03373,10.7817,3414.0,3.0,4.0779,3.55382,3.19948,0.000376824
177,3.03285,10.7786,3413.0,2.99985,4.07759,3.55381,3.19949,0.000372289
179,3.03107,10.7719,3411.0,3.0,4.07744,3.5537,3.19949,0.000380287
181,3.02841,10.7629,3408.0,3.0,4.07774,3.55385,3.19949,0.000378075
183,3.02752,10.7579,3407.0,3.0,4.07744,3.55324,3.19949,0.000378729
185,3.02486,10.7487,3404.0,3.0,4.07713,3.55331,3.1995,0.000383086
187,3.02307,10.7424,3402.0,3.0,4.07668,3.55335,3.19949,0.000379362
189,3.02219,10.7387,3401.0,3.0,4.07698,3.55315,3.1995,0.000374268
191,3.0213,10.7351,3400.0,3.0,4.07729,3.55302,3.19949,0.000381853
193,3.02041,10.733,3399.0,3.0,4.07668,3.55337,3.1995,0.000371686
195,3.01863,10.7251,3397.0,3.0,4.07759,3.55284,3.19949,0.000382862
197,3.01419,10.7085,3392.0,3.0,4.07668,3.55256,3.19949,0.0003779
199,3.02662,10.7543,3406.0,3.0,4.07561,3.55311,3.19948,0.000378699
201,3.02841,10.7624,3408.0,3.0,4.07744,3.5537,3.19949,0.000377975
203,3.02574,10.7526,3405.0,3.0,4.07698,3.55356,3.19949,0.000371472
205,3.02397,10.7462,3403.0,2.99985,4.07713,3.55355,3.1995,0.000377596
207,3.0213,10.7369,3400.0,3.0,4.07729,3.55361,3.1995,0.000377155
209,3.01774,10.7232,3396.0,3.0,4.07668,3.55326,3.19949,0.000381343
211,3.01508,10.714,3393.0,3.0,4.07683,3.55336,3.19949,0.000377308
213,3.01954,10.7296,3398.0,3.0,4.07713,3.55325,3.19951,0.000377995
215,3.01241,10.7038,3390.0,2.99985,4.07729,3.55312,3.19949,0.000382505
217,3.01061,10.6982,3388.0,3.0,4.07729,3.55336,3.19947,0.000381287
219,3.00884,10.6913,3386.0,2.99985,4.07652,3.55316,3.19947,0.00038166
221,3.00708,10.6852,3384.0,3.0,4.07744,3.5532,3.19949,0.000381945
223,3.00617,10.6815,3383.0,3.0,4.07713,3.55308,3.19947,0.000374264
225,3.0044,10.6758,3381.0,2.99985,4.07637,3.55325,3.19948,0.000381092
227,3.00353,10.6713,3380.0,3.0,4.07652,3.55279,3.1995,0.000380601
229,3.00084,10.6615,3377.0,3.0,4.07668,3.5527,3.19948,0.000378557
231,2.99908,10.6545,3375.0,3.0,4.07698,3.55245,3.1995,0.000381606
233,2.99819,10.6515,3374.0,3.0,4.07576,3.5525,3.19949,0.000378746
235,2.9973,10.6486,3373.0,3.0,4.07698,3.55261,3.19949,0.000379887
237,2.99463,10.6391,3370.0,3.0,4.07637,3.55259,3.19949,0.000380778
239,2.99285,10.6318,3368.0,3.0,4.07668,3.55226,3.19949,0.000381723
241,2.99197,10.628,3367.0,3.0,4.07607,3.55203,3.19949,0.000379733
243,2.99107,10.6249,3366.0,3.0,4.07683,3.55208,3.19948,0.000382909
245,2.98928,10.6182,3364.0,3.0,4.07637,3.55196,3.19946,0.000383039
247,2.98751,10.6119,3362.0,3.0,4.07591,3.55194,3.19948,0.000380985
249,2.98751,10.6111,3362.0,3.0,4.0753,3.5517,3.19947,0.000378039
251,2.9884,10.6148,3363.0,3.0,4.07576,3.55186,3.19948,0.000382826
253,2.98752,10.6117,3362.0,3.0,4.07591,3.55189,3.19948,0.000380884
255,2.98398,10.5988,3358.0,3.0,4.07607,3.55176,3.1995,0.000381373
257,2.98307,10.5956,3357.0,3.0,4.07515,3.55178,3.19948,0.000380912
259,2.98307,10.596,3357.0,3.0,4.0753,3.55191,3.19947,0.000383176
261,2.98041,10.5854,3354.0,3.0,4.0753,3.55155,3.19948,0.00038309
263,2.97863,10.5792,3352.0,2.99985,4.07591,3.55158,3.19948,0.000382131
265,2.97684,10.5723,3350.0,3.0,4.07591,3.5514,3.19947,0.000380561
267,2.97507,10.5663,3348.0,2.99985,4.07607,3.55147,3.19947,0.000382886
269,2.97596,10.5691,3349.0,3.0,4.07576,3.55137,3.19948,0.000384101
271,2.97419,10.5628,3347.0,3.0,4.07546,3.55136,3.19948,0.000379474
273,2.9742,10.5624,3347.0,2.99985,4.07576,3.55121,3.19949,0.000380508
275,2.97152,10.5527,3344.0,3.0,4.07607,3.55116,3.19948,0.000383066
277,2.96973,10.5462,3342.0,3.0,4.07515,3.55111,3.19947,0.00038223
279,2.96885,10.5431,3341.0,3.0,4.0753,3.55111,3.19948,0.000381614
281,2.96885,10.5422,3341.0,3.0,4.07591,3.55082,3.19948,0.000383216
283,2.96707,10.5363,3339.0,3.0,4.075,3.55093,3.19948,0.000381887
285,2.96619,10.5325,3338.0,3.0,4.075,3.55073,3.19948,0.000380375
287,2.9644,10.5262,3336.0,3.0,4.07576,3.55073,3.19948,0.000385259
289,2.96353,10.5231,3335.0,3.0,4.0753,3.55074,3.19949,0.000385072
291,2.96175,10.5167,3333.0,3.0,4.07515,3.55071,3.1995,0.000381633
293,2.96088,10.5135,3332.0,3.0,4.07439,3.55068,3.19951,0.00038275
295,2.96087,10.5133,3332.0,3.0,4.07485,3.55062,3.1995,0.000379853
297,2.96086,10.5129,3332.0,3.0,4.07469,3.55051,3.19949,0.000383894
299,2.96086,10.5124,3332.0,3.0,4.07424,3.55032,3.19949,0.000385542
301,2.96262,10.519,3334.0,3.0,4.07485,3.55044,3.19947,0.000380375
303,2.96086,10.5128,3332.0,3.0,4.07439,3.55046,3.19948,0.000383612
305,2.95996,10.5104,3331.0,3.0,4.07439,3.55073,3.19948,0.000385508
307,2.95819,10.5038,3329.0,2.99985,4.075,3.55062,3.19948,0.000381791
309,2.95818,10.504,3329.0,3.0,4.0753,3.55071,3.19947,0.000381926
311,2.95552,10.4934,3326.0,3.0,4.07469,3.55032,3.19948,0.000382463
313,2.95283,10.485,3323.0,3.0,4.07454,3.5507,3.19946,0.000385792
315,2.95197,10.481,3322.0,3.0,4.07424,3.55036,3.19948,0.000383074
317,2.95197,10.4813,3322.0,3.0,4.07469,3.55048,3.19948,0.000383041
319,2.94931,10.4714,3319.0,3.0,4.07454,3.55032,3.19949,0.00038896
321,2.95019,10.4748,3320.0,2.99985,4.07515,3.55042,3.19948,0.000385917
323,2.94752,10.4645,3317.0,3.0,4.07439,3.55015,3.19948,0.000384487
325,2.94486,10.4544,3314.0,3.0,4.07469,3.54993,3.19948,0.000386921
327,2.94485,10.4548,3314.0,3.0,4.07424,3.55005,3.19948,0.000380592
329,2.94396,10.4518,3313.0,3.0,4.07439,3.55011,3.19948,0.000384701
331,2.94216,10.4447,3311.0,3.0,4.07424,3.54989,3.19945,0.00037964
333,2.94482,10.4539,3314.0,2.99985,4.07439,3.54978,3.19945,0.000385644
335,2.93863,10.4309,3307.0,3.0,4.07454,3.54945,3.19948,0.000384719
337,2.93864,10.4311,3307.0,3.0,4.07424,3.5495,3.19948,0.000387523
339,2.93774,10.4278,3306.0,3.0,4.07485,3.54948,3.19947,0.000387658
341,2.93596,10.4217,3304.0,3.0,4.07424,3.54955,3.19947,0.00038555
343,2.93595,10.4219,3304.0,3.0,4.07424,3.54961,3.19947,0.000382131
345,2.9413,10.4398,3310.0,3.0,4.07408,3.54924,3.19948,0.000380326
347,2.93419,10.4151,3302.0,3.0,4.07439,3.54942,3.19948,0.000388158
349,2.94134,10.4398,3310.0,3.0,4.07362,3.54922,3.19952,0.000384699
351,2.94396,10.4505,3313.0,3.0,4.07424,3.54966,3.19948,0.000388454
353,2.94218,10.4448,3311.0,3.0,4.07393,3.54989,3.19948,0.000385341
355,2.94039,10.4387,3309.0,3.0,4.07454,3.54999,3.19946,0.000386242
357,2.93863,10.4315,3307.0,3.0,4.07393,3.54964,3.19948,0.000389967
359,2.93772,10.4281,3306.0,3.0,4.07454,3.5496,3.19945,0.00038193
361,2.93508,10.4184,3303.0,2.99985,4.07439,3.54947,3.19948,0.000386699
363,2.93331,10.4123,3301.0,3.0,4.07408,3.54955,3.19948,0.000386552
365,2.93152,10.406,3299.0,3.0,4.07408,3.54957,3.19948,0.000385934
367,2.92976,10.4004,3297.0,3.0,4.07393,3.54979,3.19949,0.000384766
369,2.92798,10.3925,3295.0,3.0,4.07393,3.54923,3.19949,0.000384803
371,2.92797,10.3929,3295.0,3.0,4.07362,3.54938,3.19948,0.000388106
373,2.9253,10.3825,3292.0,3.0,4.07393,3.54907,3.19948,0.000384898
375,2.92441,10.3793,3291.0,3.0,4.07408,3.54906,3.19947,0.000388578
377,2.91996,10.3625,3286.0,3.0,4.07301,3.54872,3.19947,0.000387108
379,2.92176,10.3713,3288.0,3.0,4.07378,3.54954,3.19949,0.000381552
381,2.91995,10.3634,3286.0,3.0,4.07424,3.54904,3.19946,0.000388444
383,2.91908,10.3593,3285.0,3.0,4.07378,3.54868,3.19948,0.000387253
385,2.91819,10.3557,3284.0,3.0,4.07362,3.54853,3.19948,0.00038785
387,2.9173,10.3526,3283.0,3.0,4.07301,3.54856,3.19948,0.000388458
389,2.91554,10.3462,3281.0,3.0,4.07393,3.54853,3.19949,0.000388284
391,2.91642,10.3506,3282.0,3.0,4.07362,3.54893,3.19949,0.000385919
393,2.91463,10.3432,3280.0,3.0,4.07362,3.5486,3.19947,0.000381991
395,2.91374,10.34,3279.0,3.0,4.07317,3.54859,3.19947,0.000388807
397,2.91286,10.3368,3278.0,3.0,4.07347,3.54855,3.19948,0.000385453
399,2.9164,10.3477,3282.0,3.0,4.07271,3.54796,3.19947,0.000385861
401,2.91997,10.3621,3286.0,3.0,4.07347,3.54857,3.19948,0.00038656
403,2.91729,10.3527,3283.0,3.0,4.07408,3.5486,3.19947,0.000388641
405,2.91552,10.3459,3281.0,3.0,4.07317,3.54842,3.19948,0.000385902
407,2.91373,10.3403,3279.0,3.0,4.07271,3.54867,3.19946,0.000392285
409,2.91107,10.3299,3276.0,3.0,4.07271,3.54837,3.19947,0.000386568
411,2.90932,10.3235,3274.0,3.0,4.07301,3.5483,3.19949,0.00039011
413,2.90752,10.3169,3272.0,3.0,4.07317,3.54823,3.19947,0.000388294
415,2.90752,10.3173,3272.0,3.0,4.07286,3.54836,3.19947,0.000387038
417,2.90486,10.3073,3269.0,3.0,4.0724,3.54816,3.19948,0.000390125
419,2.90307,10.3011,3267.0,3.0,4.07347,3.54821,3.19947,0.000386975
421,2.90218,10.2974,3266.0,3.0,4.07271,3.54804,3.19947,0.000387096
423,2.9013,10.2948,3265.0,3.0,4.07225,3.54821,3.19947,0.000392387
425,2.9004,10.2915,3264.0,3.0,4.07286,3.54818,3.19946,0.000385241
427,2.89954,10.2878,3263.0,3.0,4.07225,3.54796,3.19949,0.00038519
429,2.89774,10.2812,3261.0,3.0,4.07317,3.54788,3.19947,0.000386917
431,2.89597,10.2745,3259.0,3.0,4.07271,3.54774,3.19947,0.000391354
433,2.89508,10.2721,3258.0,3.0,4.07317,3.54799,3.19947,0.00039374
435,2.89418,10.2693,3257.0,3.0,4.0724,3.54813,3.19947,0.0003893
437,2.89419,10.2679,3257.0,3.0,4.07271,3.54763,3.19948,0.000389352
439,2.8933,10.2649,3256.0,3.0,4.07256,3.5477,3.19947,0.000391072
441,2.89241,10.2615,3255.0,3.0,4.0724,3.54761,3.19947,0.000389179
443,2.89152,10.2579,3254.0,3.0,4.07256,3.54745,3.19947,0.000392106
445,2.88886,10.2488,3251.0,3.0,4.07256,3.54755,3.19947,0.000393425
447,2.88975,10.2531,3252.0,3.0,4.0724,3.54797,3.19948,0.000391953
449,2.89419,10.266,3257.0,2.99985,4.07134,3.54697,3.19947,0.000388209
451,2.89601,10.2733,3259.0,2.99985,4.07225,3.54727,3.19952,0.00038737
453,2.89241,10.2605,3255.0,3.0,4.0721,3.54727,3.19947,0.000391776
455,2.89062,10.2538,3253.0,3.0,4.07256,3.54712,3.19946,0.000390148
457,2.88797,10.245,3250.0,3.0,4.07195,3.54733,3.19947,0.000390711
459,2.88797,10.2448,3250.0,3.0,4.07195,3.54726,3.19948,0.000389283
461,2.88707,10.2411,3249.0,3.0,4.07195,3.5471,3.19947,0.000391164
463,2.8853,10.235,3247.0,3.0,4.07179,3.54716,3.19948,0.000391337
465,2.88352,10.2285,3245.0,3.0,4.07195,3.54709,3.19946,0.000394214
467,2.88263,10.2247,3244.0,3.0,4.07179,3.54686,3.19946,0.000392547
469,2.88086,10.2179,3242.0,3.0,4.07164,3.5467,3.19948,0.000392663
471,2.87996,10.2157,3241.0,3.0,4.0721,3.54703,3.19946,0.000391522
473,2.87908,10.2126,3240.0,3.0,4.07195,3.54705,3.19947,0.00038992
475,2.8773,10.2052,3238.0,3.0,4.07179,3.54667,3.19947,0.000392468
477,2.87641,10.203,3237.0,3.0,4.0721,3.54698,3.19947,0.00039187
479,2.87641,10.2017,3237.0,3.0,4.07164,3.54653,3.19946,0.000390346
481,2.87465,10.1959,3235.0,3.0,4.07179,3.5467,3.19949,0.000392801
483,2.87375,10.1923,3234.0,3.0,4.07195,3.54657,3.19947,0.000392694
485,2.87285,10.1892,3233.0,3.0,4.07179,3.54658,3.19947,0.000390848
487,2.87196,10.1861,3232.0,3.0,4.07164,3.54659,3.19947,0.000390737
489,2.87464,10.1956,3235.0,2.99985,4.07149,3.54661,3.19947,0.000391902
491,2.87108,10.1828,3231.0,3.0,4.07179,3.54654,3.19947,0.000391282
493,2.86841,10.1721,3228.0,3.0,4.07149,3.54612,3.19946,0.000389421
495,2.8693,10.1754,3229.0,3.0,4.07195,3.54617,3.19947,0.000389823
497,2.86751,10.1688,3227.0,3.0,4.07164,3.54607,3.19946,0.000391717
499,2.8702,10.1778,3230.0,3.0,4.07118,3.54589,3.19948,0.00039524
501,2.87107,10.1815,3231.0,3.0,4.07225,3.54609,3.19946,0.000391449
503,2.87019,10.1795,3230.0,3.0,4.07149,3.54649,3.19947,0.000391118
505,2.86841,10.1723,3228.0,3.0,4.07134,3.54617,3.19947,0.000391122
507,2.86755,10.1694,3227.0,3.0,4.07195,3.54625,3.1995,0.00039044
509,2.86575,10.1624,3225.0,3.0,4.07149,3.54603,3.19947,0.000393418
511,2.8613,10.1467,3220.0,3.0,4.07088,3.54605,3.19947,0.000396685
513,2.86219,10.1506,3221.0,3.0,4.07134,3.54632,3.19947,0.000394795
515,2.8604,10.1439,3219.0,3.0,4.07118,3.54616,3.19946,0.000391122
517,2.8613,10.1469,3220.0,3.0,4.07149,3.54611,3.19947,0.000395377
519,2.85952,10.1408,3218.0,2.99985,4.07179,3.54618,3.19946,0.000392938
521,2.85774,10.134,3216.0,3.0,4.07118,3.54603,3.19946,0.000390081
523,2.85864,10.1372,3217.0,3.0,4.07149,3.54603,3.19947,0.00039032
525,2.85685,10.1305,3215.0,2.99985,4.07103,3.5459,3.19946,0.000395594
527,2.85596,10.1271,3214.0,2.99985,4.07134,3.54583,3.19946,0.000395571
529,2.85418,10.1207,3212.0,3.0,4.07118,3.54577,3.19946,0.0003946
531,2.85419,10.1204,3212.0,3.0,4.07057,3.54567,3.19946,0.000391324
533,2.8524,10.1148,3210.0,3.0,4.07103,3.54592,3.19945,0.000391614
535,2.85329,10.1167,3211.0,3.0,4.07103,3.54548,3.19946,0.000395433
537,2.85242,10.1131,3210.0,3.0,4.07073,3.54533,3.19947,0.000389302
539,2.85064,10.1073,3208.0,3.0,4.07103,3.54551,3.19947,0.000393283
541,2.84975,10.1038,3207.0,3.0,4.07134,3.54536,3.19947,0.000393643
543,2.84797,10.0969,3205.0,3.0,4.07118,3.54515,3.19946,0.000393408
545,2.84707,10.094,3204.0,2.99985,4.07088,3.54525,3.19946,0.000397009
547,2.8462,10.0908,3203.0,3.0,4.07057,3.54522,3.19947,0.000396396
549,2.85063,10.1033,3208.0,3.0,4.06981,3.54411,3.19946,0.000392014
551,2.85241,10.1114,3210.0,3.0,4.07073,3.54472,3.19947,0.000394466
553,2.85064,10.1056,3208.0,3.0,4.07088,3.5449,3.19947,0.000395544
555,2.85419,10.118,3212.0,3.0,4.07073,3.54482,3.19946,0.000396275
557,2.84707,10.093,3204.0,3.0,4.07103,3.54492,3.19946,0.000394115
559,2.84619,10.0899,3203.0,3.0,4.07073,3.5449,3.19947,0.00039282
561,2.84442,10.0834,3201.0,3.0,4.07057,3.54484,3.19947,0.000396028
563,2.84352,10.0793,3200.0,3.0,4.07027,3.54453,3.19946,0.000391522
565,2.83997,10.0667,3196.0,3.0,4.07042,3.5445,3.19947,0.000395865
567,2.83997,10.0669,3196.0,3.0,4.07027,3.54459,3.19946,0.000396629
569,2.83904,10.0639,3195.0,3.0,4.07073,3.54468,3.19942,0.000392714
571,2.83818,10.0609,3194.0,3.0,4.07073,3.54472,3.19946,0.000393454
573,2.83907,10.0639,3195.0,3.0,4.07042,3.54466,3.19946,0.000395213
575,2.83641,10.0544,3192.0,3.0,4.07073,3.54464,3.19946,0.000390163
577,2.83641,10.0539,3192.0,3.0,4.07042,3.54447,3.19946,0.000395481
579,2.83374,10.0438,3189.0,3.0,4.06996,3.54421,3.19946,0.000394981
581,2.83286,10.0419,3188.0,3.0,4.07042,3.54467,3.19946,0.000395773
583,2.83374,10.044,3189.0,3.0,4.07042,3.54429,3.19946,0.00038936
585,2.83197,10.0374,3187.0,3.0,4.06996,3.5442,3.19946,0.000396598
587,2.84263,10.0785,3199.0,3.0,4.06767,3.54533,3.19946,0.000394562
589,2.83819,10.0572,3194.0,3.0,4.06661,3.5434,3.19947,0.000396301
591,2.84086,10.0672,3197.0,3.0,4.06676,3.5436,3.19946,0.000391395
593,2.83998,10.065,3196.0,3.0,4.06752,3.54392,3.19947,0.000393214
595,2.83552,10.0484,3191.0,3.0,4.07042,3.54362,3.19946,0.000394169
597,2.83463,10.0456,3190.0,3.0,4.0692,3.54373,3.19946,0.000394387
599,2.83197,10.0367,3187.0,3.0,4.06996,3.54396,3.19946,0.000397269
601,2.83018,10.0302,3185.0,3.0,4.07027,3.54389,3.19946,0.000397192
603,2.82842,10.0234,3183.0,3.0,4.06981,3.54368,3.19946,0.000394378
605,2.82752,10.0207,3182.0,3.0,4.06935,3.54384,3.19946,0.000396366
607,2.82574,10.0152,3180.0,3.0,4.07042,3.54415,3.19946,0.000395495
609,2.82485,10.01,3179.0,3.0,4.06981,3.54341,3.19946,0.00039837
611,2.82484,10.0105,3179.0,3.0,4.0695,3.54358,3.19945,0.000397577
613,2.82219,10.0015,3176.0,3.0,4.07012,3.54373,3.19946,0.000397572
615,2.82218,10.0009,3176.0,3.0,4.06935,3.54356,3.19945,0.000398296
617,2.82219,10.0019,3176.0,3.0,4.06981,3.54387,3.19946,0.000395376
619,2.8293,10.0252,3184.0,3.0,4.06981,3.54321,3.19946,0.000395957
621,2.8213,9.99804,3175.0,3.0,4.06981,3.54363,3.19946,0.000398037
623,2.81953,9.99155,3173.0,3.0,4.07012,3.54356,3.19946,0.000397166
625,2.81953,9.99101,3173.0,3.0,4.06981,3.54337,3.19946,0.00039779
627,2.81774,9.98418,3171.0,3.0,4.0695,3.54319,3.19945,0.000395962
629,2.81686,9.9811,3170.0,3.0,4.0695,3.54321,3.19946,0.000398167
631,2.81597,9.97778,3169.0,3.0,4.06935,3.54315,3.19946,0.000400129
633,2.81686,9.98167,3170.0,3.0,4.0692,3.54341,3.19947,0.000401313
635,2.8142,9.97172,3167.0,3.0,4.06905,3.54323,3.19947,0.000397723
637,2.82041,9.99246,3174.0,3.0,4.0695,3.54277,3.19946,0.000398408
639,2.81953,9.98998,3173.0,3.0,4.06981,3.543,3.19947,0.000395022
641,2.81685,9.98005,3170.0,3.0,4.06981,3.54284,3.19945,0.000393525
643,2.81507,9.97316,3168.0,3.0,4.06981,3.54264,3.19944,0.000396334
645,2.81241,9.96452,3165.0,3.0,4.07042,3.54292,3.19945,0.000399431
647,2.81152,9.96121,3164.0,3.0,4.06844,3.54286,3.19946,0.000401407
649,2.81062,9.95792,3163.0,3.0,4.06905,3.54282,3.19945,0.000397125
651,2.80975,9.9544,3162.0,3.0,4.0692,3.54267,3.19946,0.000396204
653,2.80796,9.94757,3160.0,3.0,4.06874,3.54249,3.19945,0.000397005
655,2.80708,9.94459,3159.0,3.0,4.0692,3.54255,3.19946,0.000400807
657,2.8053,9.93924,3157.0,3.0,4.0695,3.54289,3.19945,0.000398717
659,2.80441,9.9345,3156.0,3.0,4.0692,3.54231,3.19946,0.000400979
661,2.80263,9.92852,3154.0,3.0,4.06874,3.54244,3.19945,0.000396625
663,2.80263,9.92807,3154.0,3.0,4.0692,3.54227,3.19945,0.000393524
665,2.80263,9.9283,3154.0,3.0,4.06859,3.54236,3.19945,0.000399321
667,2.80085,9.9211,3152.0,3.0,4.06905,3.54203,3.19945,0.00039828
669,2.80885,9.94619,3161.0,3.0,4.0692,3.54088,3.19945,0.000399228
671,2.79997,9.91828,3151.0,3.0,4.06889,3.54215,3.19945,0.000396429
673,2.79819,9.91181,3149.0,3.0,4.06889,3.54209,3.19945,0.000398917
675,2.7973,9.90906,3148.0,2.99985,4.06844,3.54222,3.19946,0.000397985
677,2.7973,9.90913,3148.0,3.0,4.06874,3.54225,3.19945,0.000399453
679,2.7973,9.9081,3148.0,2.99985,4.06828,3.54189,3.19945,0.000400769
681,2.79644,9.90576,3147.0,2.99985,4.06889,3.54214,3.19949,0.000397905
683,2.81774,9.98074,3171.0,3.0,4.06783,3.54197,3.19945,0.000393013
685,2.81952,9.99063,3173.0,3.0,4.06935,3.54324,3.19946,0.000397248
687,2.81773,9.98372,3171.0,3.0,4.0692,3.54304,3.19944,0.000400388
689,2.81505,9.97393,3168.0,3.0,4.06905,3.54294,3.19942,0.000394888
691,2.81506,9.97397,3168.0,3.0,4.0692,3.54294,3.19944,0.000394992
693,2.8124,9.96386,3165.0,3.0,4.0692,3.5427,3.19944,0.000397174
695,2.81152,9.96047,3164.0,3.0,4.06905,3.5426,3.19945,0.000399048
697,2.81331,9.96747,3166.0,3.0,4.0692,3.54284,3.19946,0.000398452
699,2.80796,9.9475,3160.0,3.0,4.0695,3.54247,3.19945,0.000398629
701,2.80708,9.94461,3159.0,3.0,4.06874,3.54255,3.19946,0.000396761
703,2.80441,9.93551,3156.0,3.0,4.0692,3.54268,3.19945,0.000395477
705,2.8053,9.93805,3157.0,3.0,4.0692,3.54246,3.19945,0.000400602
707,2.80531,9.93799,3157.0,3.0,4.06844,3.54243,3.19947,0.000397373
709,2.80352,9.93138,3155.0,3.0,4.06889,3.54233,3.19946,0.000397803
711,2.80263,9.92815,3154.0,3.0,4.06935,3.5423,3.19946,0.000398877
713,2.80085,9.92166,3152.0,3.0,4.06889,3.54224,3.19945,0.000398302
715,2.80086,9.92136,3152.0,2.99985,4.06981,3.54212,3.19945,0.000399473
717,2.79908,9.91517,3150.0,3.0,4.06844,3.54216,3.19945,0.000396443
719,2.79819,9.9113,3149.0,3.0,4.06828,3.5419,3.19946,0.000400318
721,2.79731,9.90873,3148.0,3.0,4.06859,3.54211,3.19946,0.000399225
723,2.79819,9.91348,3149.0,3.0,4.0692,3.54268,3.19946,0.000399768
725,2.79641,9.90532,3147.0,3.0,4.06874,3.54201,3.19946,0.000400299
727,2.79641,9.90545,3147.0,3.0,4.06859,3.54207,3.19945,0.000398821
729,2.79551,9.9022,3146.0,3.0,4.06844,3.54204,3.19944,0.00040304
731,2.80974,9.94354,3162.0,2.99985,4.06462,3.53882,3.19945,0.000396216
733,2.80706,9.93321,3159.0,3.0,4.06416,3.53852,3.19944,0.000393683
735,2.78397,9.84335,3133.0,3.0,4.06355,3.53559,3.19945,0.000393266
737,2.78486,9.84268,3134.0,3.0,4.06126,3.53422,3.19945,0.000399183
739,2.79019,9.86565,3140.0,3.0,4.06203,3.53571,3.19945,0.000400771
741,2.79108,9.87003,3141.0,3.0,4.06233,3.53614,3.19945,0.000396911
743,2.79285,9.87836,3143.0,2.99985,4.06355,3.53688,3.19945,0.000399634
745,2.78219,9.83626,3131.0,3.0,4.06218,3.5353,3.19946,0.00040131
747,2.79642,9.8953,3147.0,3.0,4.06386,3.53842,3.19946,0.000400973
749,2.80708,9.94301,3159.0,3.0,4.06889,3.54199,3.19946,0.000398372
751,2.80441,9.9335,3156.0,3.0,4.06889,3.54196,3.19945,0.000396181
753,2.80263,9.92705,3154.0,3.0,4.06859,3.54192,3.19945,0.000399198
755,2.80086,9.92082,3152.0,3.0,4.06859,3.54193,3.19946,0.000400105
757,2.79818,9.91064,3149.0,3.0,4.06874,3.54168,3.19945,0.000398659
759,2.7973,9.90739,3148.0,3.0,4.06828,3.54163,3.19946,0.000400413
761,2.79552,9.90104,3146.0,3.0,4.06874,3.54161,3.19945,0.000402029
763,2.79285,9.89143,3143.0,3.0,4.06844,3.54156,3.19945,0.000401229
765,2.79197,9.88762,3142.0,3.0,4.06844,3.54131,3.19946,0.000400229
767,2.79196,9.88763,3142.0,3.0,4.06859,3.54132,3.19945,0.000401697
769,2.79019,9.88285,3140.0,3.0,4.06752,3.54186,3.19945,0.000399347
771,2.7893,9.87835,3139.0,3.0,4.06813,3.54138,3.19945,0.000397368
773,2.78842,9.87516,3138.0,3.0,4.06813,3.54136,3.19946,0.00040248
775,2.78752,9.8718,3137.0,3.0,4.06813,3.54129,3.19945,0.000399094
777,2.78575,9.86537,3135.0,3.0,4.06813,3.54124,3.19945,0.00040178
779,2.78485,9.86125,3134.0,3.0,4.06798,3.54089,3.19945,0.000403913
781,2.77064,9.80453,3118.0,2.99985,4.06691,3.53859,3.19945,0.000402648
783,2.76797,9.79689,3115.0,3.0,4.06722,3.53924,3.19945,0.000405535
785,2.7644,9.78305,3111.0,3.0,4.06676,3.5388,3.19944,0.000404045
787,2.76264,9.77761,3109.0,3.0,4.06706,3.5391,3.19945,0.00040406
789,2.76175,9.7743,3108.0,3.0,4.06752,3.53903,3.19945,0.000399917
791,2.75997,9.76795,3106.0,3.0,4.06722,3.53902,3.19945,0.000403615
793,2.7573,9.75865,3103.0,3.0,4.06676,3.53907,3.19944,0.000404054
795,2.75641,9.75484,3102.0,3.0,4.0663,3.53883,3.19945,0.000405316
797,2.75552,9.75171,3101.0,2.99985,4.06645,3.53884,3.19944,0.000405742
799,2.75464,9.74816,3100.0,3.0,4.06676,3.53868,3.19945,0.000405726
801,2.75286,9.74234,3098.0,3.0,4.06706,3.53886,3.19944,0.000407121
803,2.75197,9.73886,3097.0,3.0,4.06691,3.53874,3.19945,0.000405182
805,2.75197,9.73892,3097.0,3.0,4.06661,3.53875,3.19945,0.000405626
807,2.75109,9.73608,3096.0,3.0,4.06691,3.53886,3.19945,0.000404771
809,2.75019,9.7338,3095.0,3.0,4.06706,3.53918,3.19945,0.000405641
811,2.7484,9.72575,3093.0,3.0,4.06615,3.53855,3.19944,0.000408075
813,2.74752,9.72272,3092.0,3.0,4.06691,3.53859,3.19944,0.0004049
815,2.74753,9.72254,3092.0,3.0,4.06676,3.53851,3.19945,0.000406233
817,2.74575,9.71593,3090.0,3.0,4.06676,3.5384,3.19944,0.000403433
819,2.74841,9.72657,3093.0,3.0,4.06645,3.53884,3.19944,0.000404078
821,2.74758,9.72307,3092.0,3.0,4.0663,3.53864,3.19951,0.000400358
823,2.74753,9.72221,3092.0,3.0,4.06676,3.5384,3.19945,0.000405196
825,2.74664,9.71972,3091.0,3.0,4.06676,3.53863,3.19945,0.000406167
827,2.74486,9.71244,3089.0,3.0,4.06569,3.53828,3.19944,0.000404206
829,2.74395,9.70939,3088.0,3.0,4.06554,3.53834,3.19942,0.000404831
831,2.74395,9.70681,3088.0,3.0,4.06554,3.5374,3.19942,0.000401519
833,2.74218,9.70129,3086.0,3.0,4.06584,3.53766,3.19944,0.00040455
835,2.74038,9.6941,3084.0,3.0,4.06584,3.53737,3.19941,0.000405604
837,2.73863,9.68795,3082.0,3.0,4.06554,3.53738,3.19943,0.00040765
839,2.73686,9.6813,3080.0,3.0,4.06554,3.53724,3.19944,0.000409203
841,2.7404,9.69387,3084.0,3.0,4.06615,3.53725,3.19943,0.000405059
843,2.73508,9.67498,3078.0,3.0,4.06569,3.53723,3.19944,0.000406544
845,2.73597,9.67842,3079.0,3.0,4.06584,3.53733,3.19945,0.00040542
847,2.73507,9.67484,3078.0,3.0,4.06477,3.53719,3.19943,0.0004058
849,2.73241,9.66531,3075.0,3.0,4.06538,3.53714,3.19944,0.000404061
851,2.73152,9.66231,3074.0,2.99985,4.06538,3.5372,3.19944,0.000408165
853,2.73063,9.65863,3073.0,3.0,4.06462,3.53701,3.19944,0.000405169
855,2.72974,9.6572,3072.0,3.0,4.06462,3.53763,3.19944,0.000403959
857,2.72975,9.65597,3072.0,3.0,4.06538,3.53717,3.19945,0.000405798
859,2.72797,9.64952,3070.0,3.0,4.06554,3.53711,3.19945,0.000408349
861,2.7271,9.64644,3069.0,3.0,4.06554,3.53712,3.19946,0.00040893
863,2.72622,9.64266,3068.0,3.0,4.06508,3.53687,3.19948,0.000404685
865,2.7253,9.63904,3067.0,3.0,4.06584,3.53674,3.19943,0.000407853
867,2.72441,9.63541,3066.0,3.0,4.06508,3.53656,3.19944,0.000408583
869,2.72264,9.62995,3064.0,3.0,4.06508,3.53685,3.19945,0.000410195
871,2.72263,9.62973,3064.0,3.0,4.06584,3.53679,3.19943,0.000404068
873,2.72175,9.62646,3063.0,3.0,4.06523,3.53673,3.19944,0.000407339
875,2.72085,9.62294,3062.0,3.0,4.06477,3.5366,3.19944,0.000407173
877,2.71908,9.61617,3060.0,3.0,4.06462,3.53641,3.19944,0.000408836
879,2.71819,9.61274,3059.0,3.0,4.06477,3.53631,3.19944,0.000409918
881,2.72529,9.63565,3067.0,3.0,4.06447,3.5355,3.19943,0.000407057
883,2.72263,9.62649,3064.0,3.0,4.06508,3.53559,3.19944,0.000406658
885,2.71996,9.6182,3061.0,2.99985,4.06477,3.53602,3.19943,0.000408104
887,2.7173,9.6092,3058.0,3.0,4.06447,3.53617,3.19944,0.000406258
889,2.71464,9.59865,3055.0,3.0,4.06477,3.53575,3.19944,0.000407857
891,2.71285,9.59312,3053.0,3.0,4.06432,3.53604,3.19943,0.000410124
893,2.71019,9.58293,3050.0,3.0,4.06447,3.53575,3.19944,0.000410227
895,2.7093,9.57928,3049.0,2.99985,4.06432,3.53556,3.19944,0.000413165
897,2.70663,9.56966,3046.0,2.99985,4.06493,3.5355,3.19943,0.000409363
899,2.70486,9.56307,3044.0,3.0,4.06447,3.53538,3.19944,0.000410234
901,2.70309,9.55707,3042.0,3.0,4.06401,3.53548,3.19944,0.000411306
903,2.7013,9.55058,3040.0,3.0,4.06386,3.5354,3.19944,0.000410723
905,2.70041,9.54787,3039.0,3.0,4.06416,3.53557,3.19943,0.000410858
907,2.69776,9.53732,3036.0,3.0,4.06447,3.53514,3.19945,0.000408801
909,2.69598,9.53097,3034.0,2.99985,4.06477,3.53511,3.19945,0.000412492
911,2.69241,9.51791,3030.0,2.99985,4.06401,3.53495,3.19943,0.00041087
913,2.6933,9.52305,3031.0,3.0,4.06371,3.53569,3.19943,0.000413857
915,2.69063,9.51164,3028.0,3.0,4.06386,3.53496,3.19943,0.000414267
917,2.68887,9.50584,3026.0,3.0,4.06416,3.53512,3.19944,0.000414238
919,2.6862,9.49631,3023.0,3.0,4.06401,3.53509,3.19944,0.000408944
921,2.68353,9.48547,3020.0,3.0,4.06371,3.53457,3.19944,0.000415112
923,2.68084,9.47607,3017.0,3.0,4.06416,3.5346,3.19942,0.000412844
925,2.67819,9.46572,3014.0,3.0,4.06386,3.53423,3.19943,0.00041528
927,2.68174,9.48167,3018.0,2.99985,4.06355,3.5355,3.19943,0.000407851
929,2.6782,9.46662,3014.0,3.0,4.06355,3.53456,3.19944,0.000411026
931,2.6773,9.46268,3013.0,3.0,4.06233,3.53427,3.19943,0.000410454
933,2.67019,9.43495,3005.0,3.0,4.0634,3.5333,3.19943,0.000412461
935,2.66662,9.42269,3001.0,3.0,4.0634,3.53343,3.19941,0.000414689
937,2.66573,9.42047,3000.0,3.0,4.06294,3.53377,3.19941,0.000414014
939,2.66217,9.40747,2996.0,3.0,4.06355,3.53362,3.1994,0.000412121
941,2.65773,9.3912,2991.0,3.0,4.06264,3.5334,3.19941,0.000413627
943,2.6533,9.37538,2986.0,3.0,4.06279,3.53333,3.19943,0.000413195
945,2.65063,9.3639,2983.0,3.0,4.06233,3.53256,3.19942,0.000413201
947,2.65064,9.36551,2983.0,3.0,4.06249,3.53317,3.19943,0.000415709
949,2.64619,9.34843,2978.0,3.0,4.06233,3.53265,3.19942,0.000416919
951,2.64441,9.34259,2976.0,3.0,4.06264,3.53282,3.19942,0.000418738
953,2.64175,9.33202,2973.0,3.0,4.06157,3.53238,3.19942,0.000417159
955,2.64263,9.33705,2974.0,3.0,4.06218,3.5331,3.19942,0.000416659
957,2.63908,9.32564,2970.0,3.0,4.06264,3.53353,3.19942,0.00041758
959,2.63286,9.29923,2963.0,3.0,4.06142,3.53185,3.19942,0.00041424
961,2.62841,9.28466,2958.0,3.0,4.06218,3.53229,3.19942,0.000417211
963,2.62932,9.28785,2959.0,3.0,4.06188,3.53228,3.19944,0.000419081
965,2.58752,9.12542,2912.0,3.0,4.0486,3.52656,3.19941,0.000420711
967,2.62041,9.25465,2949.0,3.0,4.06111,3.53162,3.19942,0.000418329
969,2.61952,9.25219,2948.0,3.0,4.06126,3.53188,3.19942,0.000417435
971,2.61774,9.24682,2946.0,3.0,4.06142,3.53223,3.19941,0.000419481
973,2.6133,9.22881,2941.0,3.0,4.06172,3.53133,3.19942,0.000421284
975,2.61063,9.22065,2938.0,3.0,4.06157,3.53183,3.19941,0.000422805
977,2.6071,9.2063,2934.0,3.0,4.06157,3.5311,3.19945,0.00042
979,2.60264,9.19047,2929.0,3.0,4.06126,3.53107,3.19942,0.000420144
981,2.60352,9.19039,2930.0,3.0,4.05989,3.52984,3.19941,0.000424169
983,2.59731,9.16882,2923.0,3.0,4.06035,3.52999,3.19942,0.000423618
985,2.59019,9.14199,2915.0,3.0,4.0605,3.52932,3.19942,0.000423472
987,2.58398,9.12014,2908.0,3.0,4.06035,3.52935,3.19942,0.000423442
989,2.57864,9.10239,2902.0,3.0,4.06035,3.52977,3.19942,0.000426001
991,2.56974,9.0691,2892.0,3.0,4.06004,3.52904,3.1994,0.000423991
993,2.46219,8.67501,2771.0,3.0,4.05547,3.52314,3.19938,0.000442677
995,2.45152,8.63767,2759.0,3.0,4.05608,3.52324,3.19938,0.00044416
997,2.44353,8.6089,2750.0,3.0,4.05623,3.52299,3.19939,0.000447391
999,2.43464,8.57478,2740.0,2.99985,4.05531,3.52184,3.19938,0.000446907
1001,2.4293,8.55665,2734.0,3.0,4.05562,3.52212,3.19937,0.000448949
1003,2.42308,8.53385,2727.0,3.0,4.05608,3.52176,3.19937,0.000446184
1005,2.38396,8.39273,2683.0,3.0,4.05455,3.52035,3.19935,0.000451626
1007,2.37954,8.37679,2678.0,3.0,4.05425,3.52019,3.19938,0.000455719
1009,2.37953,8.37375,2678.0,3.0,4.05409,3.51894,3.19936,0.000455548
1011,2.36175,8.3128,2658.0,2.99985,4.05364,3.51961,3.19936,0.000461331
1013,2.35464,8.28691,2650.0,3.0,4.05364,3.51924,3.19936,0.00046163
1015,2.33953,8.23057,2633.0,3.0,4.05272,3.5179,3.19935,0.000461423
1017,2.33331,8.20784,2626.0,3.0,4.05272,3.51753,3.19935,0.000461142
1019,2.32887,8.19246,2621.0,3.0,4.05241,3.51763,3.19936,0.000461032
1021,2.32531,8.18086,2617.0,3.0,4.05257,3.51803,3.19936,0.000463079
1023,2.31643,8.14787,2607.0,3.0,4.05196,3.51727,3.19937,0.00046509
1025,2.31197,8.13075,2602.0,3.0,4.05196,3.51666,3.19934,0.000465691
1027,2.30309,8.09857,2592.0,3.0,4.05226,3.51625,3.19935,0.000468784
1029,2.29598,8.07221,2584.0,3.0,4.05211,3.51564,3.19936,0.000468818
1031,2.29064,8.05368,2578.0,3.0,4.05135,3.51576,3.19934,0.000469317
1033,2.28352,8.02734,2570.0,3.0,4.05165,3.51519,3.19932,0.000472442
1035,2.29597,8.07066,2584.0,2.99985,4.04906,3.51498,3.19934,0.000467872
1037,2.27375,7.99056,2559.0,3.0,4.05028,3.51411,3.19933,0.000472266
1039,2.26398,7.95503,2548.0,2.99985,4.05043,3.51359,3.19934,0.000473467
1041,2.25597,7.92595,2539.0,3.0,4.05013,3.51316,3.19933,0.000476589
1043,2.26485,7.95506,2549.0,3.0,4.04601,3.51224,3.19932,0.000475257
1045,2.24709,7.89012,2529.0,2.99985,4.04814,3.51111,3.19934,0.000475517
1047,2.23197,7.83647,2512.0,3.0,4.0486,3.51086,3.19932,0.000480255
1049,2.22753,7.8194,2507.0,3.0,4.0486,3.51019,3.19932,0.000480543
1051,2.21953,7.79283,2498.0,3.0,4.04921,3.51087,3.19933,0.000482153
1053,2.2142,7.77246,2492.0,3.0,4.04921,3.51013,3.19932,0.000482273
1055,2.2062,7.7443,2483.0,3.0,4.04799,3.51008,3.19933,0.000486051
1057,2.20264,7.73228,2479.0,3.0,4.04891,3.5103,3.19932,0.000486774
1059,2.1982,7.71683,2474.0,3.0,4.04845,3.51037,3.19932,0.000486215
1061,2.18842,7.6816,2463.0,3.0,4.04784,3.50996,3.19931,0.000488946
1063,2.1822,7.65944,2456.0,3.0,4.04845,3.50981,3.19931,0.000489967
1065,2.18663,7.6722,2461.0,3.0,4.04799,3.50852,3.1993,0.000490646
1067,2.16709,7.60465,2439.0,3.0,4.04753,3.509,3.19931,0.000493446
1069,2.16353,7.59065,2435.0,3.0,4.04723,3.50831,3.1993,0.000493191
1071,2.15286,7.55257,2423.0,3.0,4.04677,3.508,3.19929,0.00049658
1073,2.14841,7.5363,2418.0,3.0,4.04707,3.50768,3.19929,0.000498238
1075,2.14486,7.52344,2414.0,3.0,4.04662,3.5075,3.1993,0.000495839
1077,2.13331,7.48091,2401.0,3.0,4.04616,3.50656,3.1993,0.000498143
1079,2.13331,7.48156,2401.0,3.0,4.04692,3.50686,3.1993,0.000499224
1081,2.16798,7.61135,2440.0,2.99985,4.04509,3.51064,3.19931,0.000492806
1083,2.15819,7.57853,2429.0,3.0,4.04494,3.51136,3.1993,0.000492776
1085,2.15642,7.57126,2427.0,3.0,4.04509,3.51088,3.1993,0.000495132
1087,2.14131,7.51035,2410.0,3.0,4.0428,3.5072,3.1993,0.000496029
1089,2.15997,7.58905,2431.0,3.0,4.04021,3.51333,3.1993,0.000490926
1091,2.1342,7.4927,2402.0,3.0,4.04189,3.51061,3.1993,0.00049908
1093,2.13775,7.51177,2406.0,3.0,4.04494,3.5137,3.19929,0.000500217
1095,2.12176,7.44895,2388.0,3.0,4.04372,3.51058,3.1993,0.000500153
1097,2.11731,7.43399,2383.0,3.0,4.04295,3.51089,3.1993,0.000503637
1099,2.11997,7.44762,2386.0,3.0,4.04463,3.51291,3.19928,0.000504539
1101,2.1022,7.37795,2366.0,3.0,4.04265,3.50947,3.19929,0.000506935
1103,2.09064,7.33495,2353.0,3.0,4.04143,3.5083,3.19928,0.000507596
1105,2.08086,7.30185,2342.0,3.0,4.04372,3.50888,3.19928,0.000509264
1107,2.06665,7.25137,2326.0,3.0,4.04417,3.5086,3.19928,0.000514541
1109,2.06309,7.23734,2322.0,3.0,4.04387,3.50785,3.19928,0.000514376
1111,2.0533,7.20289,2311.0,3.0,4.04494,3.50778,3.19926,0.000519071
1113,2.0462,7.17794,2303.0,3.0,4.04433,3.50776,3.19928,0.000517958
1115,2.03998,7.15564,2296.0,3.0,4.04402,3.50754,3.19927,0.000520602
1117,2.03198,7.12603,2287.0,3.0,4.04356,3.50677,3.19928,0.000522385
1119,2.02487,7.10206,2279.0,3.0,4.04402,3.50726,3.19926,0.000524487
1121,2.01864,7.07963,2272.0,3.0,4.04433,3.50696,3.19926,0.000525029
1123,2.01064,7.0503,2263.0,3.0,4.04295,3.50633,3.19925,0.000525161
1125,2.00176,7.0189,2253.0,3.0,4.04311,3.5062,3.19925,0.000528577
1127,1.99909,7.00989,2250.0,3.0,4.04326,3.50638,3.19925,0.000527993
1129,1.98931,6.97439,2239.0,3.0,4.04295,3.50577,3.19924,0.000531543
1131,1.98309,6.95182,2232.0,3.0,4.04234,3.50538,3.19925,0.000535399
1133,1.98042,6.94275,2229.0,3.0,4.04234,3.50553,3.19924,0.000536326
1135,1.96976,6.90398,2217.0,3.0,4.04173,3.50482,3.19924,0.000538197
1137,1.97154,6.90967,2219.0,3.0,4.04219,3.50454,3.19926,0.000538331
1139,1.95907,6.86705,2205.0,3.0,4.04158,3.50509,3.19921,0.000539812
1141,1.95108,6.8368,2196.0,3.0,4.04067,3.50394,3.19922,0.000542373
1143,1.94842,6.82743,2193.0,3.0,4.04097,3.50391,3.19923,0.000544438
1145,1.9422,6.80605,2186.0,3.0,4.04112,3.50413,3.19923,0.000544785
1147,1.93687,6.78544,2180.0,3.0,4.04067,3.50314,3.19923,0.000546496
1149,1.93153,6.76837,2174.0,3.0,4.04036,3.50398,3.19922,0.000546319
1151,1.92531,6.74379,2167.0,3.0,4.04005,3.50253,3.19923,0.000551889
1153,1.9351,6.77401,2178.0,3.0,4.03624,3.50043,3.19924,0.000544685
1155,1.92353,6.73279,2165.0,3.0,4.03731,3.50006,3.19922,0.000547534
1157,1.90843,6.67986,2148.0,3.0,4.03746,3.50002,3.19923,0.000552864
1159,1.90309,6.65914,2142.0,3.0,4.03731,3.49894,3.19922,0.000555483
1161,1.89509,6.63054,2133.0,3.0,4.03777,3.49863,3.19921,0.000556969
1163,1.88709,6.60234,2124.0,3.0,4.03731,3.49852,3.19921,0.000559833
1165,1.88086,6.58021,2117.0,3.0,4.03716,3.49833,3.1992,0.000559305
1167,1.87197,6.54789,2107.0,3.0,4.0367,3.49769,3.19919,0.000563772
1169,1.86664,6.52924,2101.0,3.0,4.03655,3.49768,3.1992,0.000565528
1171,1.85864,6.50081,2092.0,3.0,4.03624,3.49744,3.19919,0.000567306
1173,1.85154,6.4743,2084.0,3.0,4.03655,3.49654,3.1992,0.000568166
1175,1.83731,6.39782,2068.0,3.0,4.02495,3.482,3.19919,0.000568873
1177,1.83731,6.4029,2068.0,3.0,4.02678,3.48477,3.19918,0.000567913
1179,1.83376,6.39215,2064.0,3.0,4.02739,3.48565,3.19919,0.000571011
1181,1.82576,6.36239,2055.0,3.0,4.02693,3.48462,3.19919,0.000573959
1183,1.81776,6.33349,2046.0,2.99985,4.02647,3.48406,3.19918,0.000574545
1185,1.81334,6.32022,2041.0,2.99985,4.02602,3.48524,3.19922,0.000577075
1187,1.80264,6.27788,2029.0,3.0,4.02556,3.48242,3.19917,0.000579587
1189,1.78043,6.19902,2004.0,3.0,4.02525,3.48159,3.19917,0.000588954
1191,1.78664,6.23981,2011.0,3.0,4.03365,3.4923,3.19916,0.000589105
1193,1.78131,6.21992,2005.0,3.0,4.03334,3.49159,3.19916,0.000591325
1195,1.7742,6.19509,1997.0,3.0,4.03288,3.49159,3.19915,0.000593237
1197,1.76709,6.16945,1989.0,3.0,4.03288,3.49113,3.19915,0.000594856
1199,1.75997,6.14314,1981.0,3.0,4.03258,3.4903,3.19914,0.000597645
1201,1.75198,6.11487,1972.0,2.99985,4.03243,3.49008,3.19916,0.00059898
1203,1.75376,6.11798,1974.0,3.0,4.0277,3.48833,3.19915,0.000597291
1205,1.74132,6.0726,1960.0,3.0,4.02831,3.48718,3.19915,0.000601637
1207,1.73065,6.03557,1948.0,3.0,4.02953,3.48729,3.19914,0.000605188
1209,1.7262,6.02298,1943.0,3.0,4.02937,3.48897,3.19914,0.000605254
1211,1.71909,5.99384,1935.0,3.0,4.02968,3.48645,3.19914,0.00060973
1213,1.70754,5.9529,1922.0,3.0,4.02892,3.48607,3.19913,0.000613935
1215,1.69865,5.92096,1912.0,3.0,4.02861,3.4855,3.19913,0.000617547
1217,1.69153,5.89641,1904.0,3.0,4.02754,3.48565,3.19912,0.000618219
1219,1.68354,5.86783,1895.0,3.0,4.02831,3.48523,3.19913,0.000620834
1221,1.67822,5.85131,1889.0,2.99985,4.02831,3.48644,3.19915,0.000625636
1223,1.67199,5.82962,1882.0,3.0,4.028,3.48645,3.19914,0.000626991
1225,1.65865,5.77884,1867.0,3.0,4.028,3.48388,3.19911,0.000634239
1227,1.65153,5.75335,1859.0,3.0,4.02724,3.48346,3.1991,0.000633356
1229,1.64531,5.73439,1852.0,3.0,4.02831,3.48511,3.19909,0.000639379
1231,1.6382,5.7051,1844.0,3.0,4.02693,3.48235,3.19909,0.000639919
1233,1.6302,5.67583,1835.0,3.0,4.02617,3.4815,3.19908,0.000640396
1235,1.61954,5.63839,1823.0,3.0,4.02571,3.4813,3.19909,0.000646624
1237,1.60799,5.59558,1810.0,3.0,4.02327,3.47967,3.19909,0.000648403
1239,1.60706,5.59277,1809.0,3.0,4.02464,3.47995,3.199,0.000647918
1241,1.60087,5.56979,1802.0,3.0,4.01701,3.47904,3.19908,0.000647979